Wavelength (nm),Current (A)
1520,0.0001764304
1521,0.00017232
1522,0.0001710576
1523,0.00017080640000000002
1524,0.0001687264
1525,0.000168872
1526,0.0001712176
1527,0.0001764
1528,0.00018765919999999997
1529,0.0001971136
1530,0.00020997120000000005
1531,0.00022165280000000003
1532,0.00023756159999999997
1533,0.0002573312
1534,0.0002726704
1535,0.0002938288000000001
1536,0.00031446720000000004
1537,0.00033244800000000005
1538,0.00035614719999999987
1539,0.00037688319999999996
1540,0.00040252159999999996
1541,0.0004252368
1542,0.0004482431999999999
1543,0.0004718384000000001
1544,0.0004966624
1545,0.0005261072000000001
1546,0.0005600992
1547,0.0005813871999999999
1548,0.0006036672000000001
1549,0.0006341072000000001
1550,0.0006588735999999999
1551,0.0006912704
1552,0.0007164239999999999
1553,0.0007363999999999998
1554,0.0007652304
1555,0.0007831871999999999
1556,0.00080644
1557,0.00082992
1558,0.0008488112
1559,0.0008617007999999998
1560,0.0008769359999999997
1561,0.0008769519999999997
1562,0.0008881904
1563,0.0008876096
1564,0.0008683135999999997
1565,0.0008351632000000002
1566,0.0007576912
1567,0.0006749296000000002
1568,0.0005865872
1569,0.0005049264
1570,0.0004392816
